Folder: IASS_18_ML/GRASSHOPPER/ClassExamples/Regression

Note: README.md
# IASS_18_ML
Content for 2018 IASS Conference Masterclass on Machine Learning for Structural Design Space Exploration

File: beamdata.csv
load (lbf),span (in),inertia (in4),deflection (in)
151.329,414,885.547,2.286286
122.945,479,617.673,5.045928
86.6177,394,670.527,1.475162
126.794,412,810.064,2.007237
125.927,438,584.484,3.628438
95.1922,352,652.676,1.012494
84.0626,391,659.786,1.338294
161.881,388,890.187,1.985831
153.705,443,922.718,3.086326
141.556,376,816.839,1.637496
165.311,312,821.344,0.914683
133.493,471,891.201,3.493917
144.612,452,654.559,4.297879
123.231,387,522.818,2.400164
129.592,317,968.704,0.61227
139.377,394,828.799,1.821429
92.9157,478,526.41,4.321019
98.0578,373,932.482,0.948553
105.367,269,595.955,0.440332
119.414,347,719.686,1.111555
87.3716,341,867.563,0.658049
164.639,319,575.786,1.316851
144.754,331,528.635,1.589215
90.6155,294,577.921,0.551384
98.82,356,917.603,0.805244
88.3892,323,601.734,0.753327
114.074,372,979.594,1.002193
152.367,452,927.708,3.137571
109.966,369,963.856,0.995793
144.49,250,943.765,0.286749
142.204,374,816.252,1.532705
97.9445,430,741.576,2.063949
119.736,279,649.849,0.538292
136.684,330,754.031,1.007098
137.114,358,534.748,2.02861
112.676,311,662.05,0.728407
118.853,335,705.6533,0.978445
157.827,411,901.478,2.287923
144.241,467,668.701,4.787231
151.031,298,513.389,1.12413
136.141,338,760.868,1.040133
159.075,391,634.24,2.750241
91.4045,360,649.728,1.120593
113.258,351,705.849,1.119592
127.865,304,950.508,0.519201
91.3058,412,953.583,1.218983
83.431,361,625.865,1.066139
162.077,359,860.602,1.43043
144.801,308,754.808,0.812744
85.2003,457,731.4227,2.30194
96.8448,268,569.522,0.414073
124.38,453,845.286,2.763816
134.887,421,592.811,3.291488
136.747,370,546.026,2.153554
139.479,386,820.387,1.782779
130.985,362,520.347,1.971268
115.063,342,951.279,0.780406
114.805,354,713.111,1.222962
153.654,311,534.64,1.244846
137.322,298,972.276,0.533304
115.846,300,910.046,0.484537
128.573,370,771.309,1.459019
163.561,325,829.192,1.004001
92.158,453,748.847,2.362214
147.497,289,743.959,0.619278
142.492,355,546.772,1.90585
160.407,269,511.099,0.762183
120.1748,393,519.925,2.49762
153.215,418,645.456,3.391752
85.8781,343,614.692,0.865977
163.168,344,598.274,1.789756
163.3262,426,933.666,2.789879
159.958,403,649.557,2.902564
85.9512,333,604.738,0.822511
137.255,280,703.197,0.5594
165.504,333,592.933,1.530013
83.4186,349,863.476,0.657427
127.959,362,760.522,1.347413
153.019,455,682.708,4.51226
95.776,445,501.018,3.338057
107.162,351,686.955,1.082365
165.028,340,599.715,1.725423
157.625,257,990.803,0.336827
149.824,340,554.022,1.756668
108.982,408,502.331,2.839334
102.4,453,779.133,2.546331
157.297,380,867.494,1.725025
160.375,343,588.873,1.761921
163.908,395,653.188,2.879552
114.251,479,842.036,3.1647
134.62,447,619.899,4.002615
144.582,465,918.635,3.519771
111.635,273,619.303,0.479081
145.662,281,730.052,0.584514
155.967,416,901.639,2.490383
143.967,444,644.884,3.836318
165.928,259,517.504,0.638274
143.837,277,970.109,0.419451
99.6361,271,580.922,0.416366
146.423,419,876.036,2.336851
100.711,478,800.094,3.026585
121.989,345,974.967,0.84136
98.898,479,795.259,3.162717
112.773,247,845.642,0.2198
87.1115,350,626.355,0.936465
142.194,297,736.019,0.670317
161.231,245,738.927,0.373131
83.5556,416,684.222,1.647242
85.2643,371,642.193,1.129212
150.387,291,754.567,0.641802
94.9523,285,581.893,0.508226
144.281,457,659.231,4.228413
119.334,409,783.775,1.981238
109.307,258,596.744,0.386947
114.431,251,855.234,0.235648
86.8434,387,663.846,1.321567
96.8794,384,690.284,1.457625
153.527,255,725.996,0.421927
90.478,254,785.893,0.219025
160.667,310,805.281,0.879927
109.159,302,892.491,0.475358
118.545,413,535.933,2.916968
155.126,397,628.426,2.868375
139.355,258,937.256,0.31473
160.971,414,663.905,3.35523
159.036,420,914.394,2.609516
151.273,330,548.062,1.515444
123.886,313,697.73,0.787818
96.7884,475,784.994,3.025602
137.731,348,775.761,1.162702
95.5271,272,569.704,0.411566
134.566,357,775.32,1.321858
145.025,415,617.33,3.236341
106.145,321,902.383,0.554016
109.622,345,938.663,0.776801
158.971,443,688.578,4.19375
138.532,248,923.642,0.257367
149.245,259,717.03,0.440455
131.489,363,772.74,1.3137
94.7517,442,994.842,1.70116
135.659,331,751.896,1.013759
131.592,466,630.419,4.769698
101.525,378,698.499,1.353379
163.879,264,766.861,0.494804
106.368,398,983.462,1.277375
110.288,384,730.732,1.509658
91.7118,447,740.912,2.36502
90.0326,365,899.828,0.82088
108.379,302,639.941,0.674123
120.425,281,903.494,0.372002
162.966,288,538.818,0.920847
115.942,454,820.929,2.794858
90.9716,328,864.449,0.589664
151.645,266,731.637,0.465247
136.693,379,804.378,1.569286
106.396,345,678.76,1.013796
107.865,462,805.008,2.825183
163.56,273,775.508,0.558774
101.784,435,508.388,3.206666
99.06067,250,807.728,0.220599
160.069,407,904.452,2.340691
95.8737,421,976.123,1.37047
161.44,274,519.932,0.853617
86.9537,350,625.49,0.935885
138.916,312,742.026,0.831187
99.0395,263,571.405,0.372734
140.644,277,960.372,0.393094
158.041,316,803.448,0.935052
147.327,374,831.956,1.645989
140.318,280,962.357,0.408608
126.247,408,803.473,2.037082
123.645,477,618.226,4.747485
122.604,467,854.343,3.043953
128.355,446,599.633,3.887343
87.4308,364,891.29,0.834118
147.776,343,550.338,1.717463
132.297,280,688.395,0.548341
144.465,284,979.619,0.439275
122.536,466,603.016,4.384037
131.888,455,619.956,4.414431
128.968,408,812.424,2.063245
148.479,246,952.133,0.274686
99.5597,257,565.893,0.36274
163.112,434,691.497,3.957903
93.114,260,800.074,0.256193
157.503,459,950.562,3.384398
115.793,256,864.092,0.269223
148.044,416,627.603,3.126126
115.202,363,973.267,0.971449
119.308,282,651.465,0.531438
141.826,316,755.05,0.880216
99.0561,340,900.878,0.717138
161.859,303,801.392,0.773663
142.323,450,895.658,2.954275
143.769,476,926.875,3.810202
149.726,371,835.652,1.615454
85.0758,322,590.359,0.691674
121.034,458,590.635,4.116262
117.357,291,655.49,0.588647
132.44,299,708.92,0.659892
85.2698,431,954.722,1.428381
93.81793,321,865.674,0.531275
129.384,336,988.093,0.796628
92.917,370,663.707,1.247122
128.7,450,604.943,4.007063
101.515,462,535.799,4.072147
85.7766,295,814.646,0.364495
165.163,378,889.659,1.829626
114.628,361,719.601,1.246429
135.141,473,897.743,3.401851
109.662,379,723.654,1.436786
107.273,296,880.033,0.414423
104.776,407,988.229,1.368702
87.317,309,834.17,0.437473
132.676,349,511.214,1.755986
111.174,398,997.585,1.256757
99.1594,254,811.659,0.246085
127.534,413,813.165,2.138546
144.601,243,936.765,0.245396
133.056,451,619.163,4.307043
92.3999,245,532.42,0.293303
113.478,402,758.833,1.805194
87.31962,474,755.444,2.653469
164.884,288,794.39,0.682879
109.659,407,753.34,1.933814
105.516,331,660.899,0.917402
92.9498,402,947.497,1.132445
115.492,244,850.438,0.213624
102.594,372,694.78,1.355819
157.109,363,598.986,2.020766
87.9532,327,854,0.568506
131.872,356,515.988,1.967588
155.667,427,661.947,3.48861
166.494,422,939.118,2.598433
139.361,295,974.862,0.519122
122.401,278,656.508,0.512202
143.7,371,567.879,2.213761
134.643,291,957.216,0.48149
162.841,285,785.164,0.652988
165.316,256,762.631,0.422327
94.7706,284,830.0347,0.359177
112.873,468,576.157,4.481069
166.539,397,663.1935,2.947927
166.209,247,756.411,0.389982
145.615,377,579.561,2.349185
96.3782,303,854.558,0.461202
157.743,288,773.41,0.666862
143.167,441,638.801,4.138206
91.59577,305,842.629,0.454597
132.784,329,740.818,0.931398
133.107,424,841.103,2.4117
164.364,400,909.554,2.128865
88.3467,383,663.689,1.291202
153.201,393,868.898,1.914448
85.3004,419,692.122,1.714165
150.476,479,700.848,5.310632
109.279,275,614.797,0.461881
127.191,402,550.223,2.754994
125.411,313,952.372,0.570394
90.4948,246,527.879,0.29402
113.221,439,796.728,2.571299
120.991,374,752.851,1.459115
86.2158,320,841.976,0.492281
150.29,330,544.256,1.514646
107.364,437,776.8,2.442678
129.044,287,935.976,0.444137
109.376,273,612.739,0.473486
117.888,337,705.194,0.993905
84.5127,393,913.284,1.018344
87.8133,306,582.375,0.590764
148.197,384,845.04,1.726114
126.425,374,518.816,2.167745
119.864,289,910.208,0.411359
95.8325,320,870.54,0.560707
101.2,282,847.319,0.367209
93.5735,292,585.364,0.548363
129.543,308,959.845,0.549956
154.775,393,623.477,2.768138
143.745,251,692.556,0.366055
162.672,262,511.169,0.731298
99.3069,443,759.819,2.307014
149.782,306,517.981,1.228123
110.775,439,539.834,3.616674
125.988,244,632.565,0.324635
134.872,316,733.435,0.813693
138.339,277,703.044,0.513564
148.966,475,941.743,3.683052
152.456,432,657.491,3.782635
137.7,280,954.648,0.423868
113.733,286,639.221,0.543704
140.572,267,699.709,0.453103
116.445,422,538.469,3.26489
118.724,281,898.427,0.368232
139.465,410,845.123,2.099529
121.33,354,983.096,0.920313
108.306,455,548.872,4.010999